{
  "Customer2": [
    {
      "id": "SASPRI12-10",
      "type": "type",
      "name": "Mukiban Saleh",
      "noHp": "0341122334455",
      "email": "s2@email.id",
      "pekerjaan": "Peternak",
      "kelompok": "SASPRI12",
      "noAnggota": "10",
      "jalan": "jl. satu no 2",
      "rt": "03",
      "rw": "003",
      "kelurahan": "Karang Asem",
      "kecamatan": "Banjaran",
      "kota": "Banjarnegara",
      "kabupaten": "Banjarnegara",
      "kodePos": "45312",
      "bankName": "BRI",
      "bankAccountNumber": "512001002002",
      "bankAccountNama": "Mukiban Saleh",
      "ktp": "1234093456780012",
      "dob": "17/09/1972",
      "pob": "Banjarnegara",
      "imei": "",
      "roles": "ROLE_CUSTOMER",
      "alias": "",
      "status": "Aktif",
      "tglRegistrasiMillis": 100000000,
      "tglRegistrasi": "20/03/2024",
      "account": "account",
      "accountNonExpired": true,
      "enabled": true,
      "locked": false,
      "expired": false,
      "userTypes": "Normal",
      "trial": 1,
      "chain": "SASPRI12",
      "salesId": "SASPRI12",
      "marketingId": "SASPRINAS",
      "brokerId": "ISTPRO",
      "responseCode": "responseCode",
      "responseMessage": "responseMessage",
      "partner": "IstPro",
      "classification": "classification"
    },
    {
      "id": "SASPRI12-05",
      "type": "type",
      "name": "Sri Muryati",
      "noHp": "0341456789000",
      "email": "s1@email.id",
      "pekerjaan": "Peternak",
      "kelompok": "SASPRI12",
      "noAnggota": "05",
      "jalan": "jl. togog no 2",
      "rt": "04",
      "rw": "004",
      "kelurahan": "Karang Asem",
      "kecamatan": "Banjaran",
      "kota": "Banjarnegara",
      "kabupaten": "Banjarnegara",
      "kodePos": "45312",
      "bankName": "BRI",
      "bankAccountNumber": "51288099299300",
      "bankAccountNama": "Bu Sri Muryati ",
      "ktp": "32762312120200021",
      "dob": "17/09/1972",
      "pob": "Banjarnegara",
      "imei": "",
      "roles": "ROLE_CUSTOMER",
      "alias": "",
      "status": "Aktif",
      "tglRegistrasiMillis": 100000000,
      "tglRegistrasi": "20/03/2024",
      "account": "account",
      "accountNonExpired": true,
      "enabled": true,
      "locked": false,
      "expired": false,
      "userTypes": "Normal",
      "trial": 1,
      "chain": "SASPRI12",
      "salesId": "SASPRI12",
      "marketingId": "SASPRINAS",
      "brokerId": "ISTPRO",
      "responseCode": "responseCode",
      "responseMessage": "responseMessage",
      "partner": "IstPro",
      "classification": "classification"
    }
  ],
  "KandangSapi": [
    {
      "customerId": "SASPRI12-10",
      "namaKandang": "Rumah",
      "jalan": "idem rumah",
      "rt": "idem",
      "rw": "idem",
      "kelurahan": "idem",
      "kecamatan": "idem",
      "kota": "idem",
      "kabupaten": "idem juga",
      "kodePos": "juga",
      "luas": 15,
      "kapasitas": 2,
      "jenis": "Permanen",
      "foto1": "",
      "foto2": "",
      "foto3": "",
      "fasilitas": "full fasilitas",
      "status": "",
      "id": "9173"
    },
    {
      "id": "c8f3",
      "customerId": "SASPRI12-10",
      "namaKandang": "Komunal 1",
      "jalan": "ujung desa",
      "rt": "00",
      "rw": "00",
      "kelurahan": "idem",
      "kecamatan": "idem",
      "kota": "idem",
      "kabupaten": "idem",
      "kodePos": "idem",
      "luas": 200,
      "kapasitas": 30,
      "jenis": "Kandang bersama semi permanen",
      "foto1": "",
      "foto2": "",
      "foto3": "",
      "fasilitas": "full fasilitas dan pengamanan 24 jam dengan cctv, perawatan secara bersama",
      "status": ""
    }
  ],
  "Customer": [
    {
      "id": "10",
      "customerId": "SASPRI12-10",
      "fullName": "Mukiban Saleh",
      "alamat": {
        "jalan": "jl. satu no 2",
        "rt": "002",
        "rw": "012",
        "kelurahan": "Warung Jati",
        "kecamatan": "Pancoran",
        "kota": "Jakarta Selatan",
        "tipeDati2": "Kota",
        "namaDati2": "Jakarta Selatan",
        "kodePos": "12750"
      },
      "ktp": "1234093456780012",
      "npwp": "",
      "noTelp": "08113456767",
      "email": "kibal.saleh@email.id",
      "pekerjaan": "peternak",
      "alamatKantor": null,
      "salesId": "SASPRI12",
      "marketingId": "SASPRINAS",
      "brokerId": "ISPRO",
      "bankAccount": null,
      "codeUpline": "",
      "custGroupCode": "SASPRI12",
      "groupName": "Kelompok Peternak Maju Terus",
      "registeredDt": 100000012,
      "status": "Aktif"
    },
    {
      "id": "7416",
      "customerId": "SASPRI12-05",
      "fullName": "Sri Muryati",
      "alamat": {
        "jalan": "jl. togo no 2",
        "rt": "001",
        "rw": "010",
        "kelurahan": "Menteng Dalem",
        "kecamatan": "Menteng",
        "kota": "Jakarta Selatan",
        "tipeDati2": "Kota",
        "namaDati2": "Jakarta Selatan",
        "kodePos": "12550"
      },
      "ktp": "123400456780012",
      "npwp": "",
      "noTelp": "07883456123",
      "email": "Sri.Muryati@email.id",
      "pekerjaan": "peternak",
      "alamatKantor": null,
      "salesId": "SASPRI12",
      "marketingId": "SASPRINAS",
      "brokerId": "ISTPRO",
      "bankAccount": null,
      "codeUpline": "",
      "custGroupCode": "SASPRI12`",
      "groupName": "Kelompok Peternak Sejahtera",
      "registeredDt": 100000012,
      "status": "Aktif"
    }
  ],
  "KategoriProduk": [
    {
      "id": "1",
      "kategoriCode": "ATS",
      "subKategoriCode": "SP",
      "kategoriDeskripsi": "Sapi Fattening",
      "iconFilename": "assets/icon/icon_ats_sp_trspn.png",
      "status": 1
    },
    {
      "id": "2",
      "kategoriCode": "ATS",
      "subKategoriCode": "SI",
      "kategoriDeskripsi": "Sapi Breeding",
      "iconFilename": "assets/icon/icon_ats_si_trspn.png",
      "status": 1
    },
    {
      "id": "3",
      "kategoriCode": "ATS",
      "subKategoriCode": "SO",
      "kategoriDeskripsi": "Sapi Pejantan",
      "iconFilename": "assets/icon/icon_ats_so.png",
      "status": 1
    }
  ],
  "ProdukAsuransi": [
    {
      "id": "3",
      "productCode": "JTNATSSP1",
      "productName": "Asuransi Sapi Fattening Jasa Tania",
      "productKategori": "ATS",
      "productSubKategori": "SP",
      "codeAsuransi": "JasaTania",
      "productShortDescription": "Perlindungan dari risiko akibat meninggal karena penyakit, kecelakaan atau pencurian.",
      "productLongDescription": "Perlindungan dari risiko akibat meninggal karena penyakit, kecelakaan atau pencurian.",
      "manfaatShort": [
        "1. Pengurusan Cepat",
        "2. Klaim Cepat",
        "3. Premi kompetitif"
      ],
      "manfaatAdditional": [
        "4. Tersedia bantuan premi pemerintah."
      ],
      "pengecualianShort": [
        "1. Kematian atas wabah yang diumumkan oleh Pemerintah",
        "2. Pengawasan kesehatan yang tidak teratur."
      ],
      "pengecualianAdditional": [
        ""
      ],
      "tncDescription": [
        "tncDescription"
      ],
      "klaimDescription": [
        "klaimDescription"
      ],
      "rateCalculationMethod": "Normal",
      "status": 1,
      "ratePremi": 0.012,
      "tenor": 4,
      "logoUri": "assets/icon/icon_bull2.png"
    },
    {
      "id": "4",
      "productCode": "JTNATSSI1",
      "productName": "Asuransi Sapi Breeding Jasa Tania",
      "productKategori": "ATS",
      "productSubKategori": "SI",
      "codeAsuransi": "JasaTania",
      "productShortDescription": "Perlindungan dari risiko akibat meninggal karena penyakit, kecelakaan atau pencurian.",
      "productLongDescription": "Perlindungan dari risiko akibat meninggal karena penyakit, kecelakaan atau pencurian.",
      "manfaatShort": [
        "1. Pengurusan Cepat",
        "2. Klaim Cepat",
        "3. Premi kompetitif"
      ],
      "manfaatAdditional": [
        "4. Tersedia bantuan premi pemerintah."
      ],
      "pengecualianShort": [
        "1. Kematian atas wabah yang diumumkan oleh Pemerintah",
        "2. Pengawasan kesehatan yang tidak teratur."
      ],
      "pengecualianAdditional": [
        ""
      ],
      "tncDescription": [
        "tncDescription"
      ],
      "klaimDescription": [
        "klaimDescription"
      ],
      "rateCalculationMethod": "Normal",
      "status": 1,
      "ratePremi": 0.0225,
      "tenor": 12,
      "logoUri": "assets/icon/icon_cow2.png"
    }
  ],
  "PerluasanRisiko": [
    {
      "id": "pr1",
      "perluasanRisikoId": "Kebakaran/Flexas",
      "namaPerluasanRisiko": "Kebakaran, Petir, Ledakan, Kejatuhan Pesawat, dan Asap",
      "codeAsuransi": "JasaTania",
      "kategori": "ATS",
      "subKategori": "SI",
      "codePreReq": null,
      "deskripsi": "Perlakuan Resiko akibat Kebakaran, Petir, Ledakan, Kejatuhan Pesawat, dan Asap",
      "listNilaiPertanggungan": null,
      "listJumlahTertanggung": null,
      "rate": 0.0001,
      "status": 1
    },
    {
      "id": "pr2",
      "perluasanRisikoId": "Gempa&Banjir",
      "namaPerluasanRisiko": "Gempa dan Banjir",
      "codeAsuransi": "JasaTania",
      "kategori": "ATS",
      "subKategori": "SI",
      "codePreReq": null,
      "deskripsi": "Perluasan Resiko akibat Gempa dan Banjir",
      "listNilaiPertanggungan": null,
      "listJumlahTertanggung": null,
      "rate": 0.001,
      "status": 1
    },
    {
      "id": "pr3",
      "perluasanRisikoId": "Huru Hara",
      "namaPerluasanRisiko": "Huru Hara",
      "codeAsuransi": "JasaTania",
      "kategori": "ATS",
      "subKategori": "SI",
      "codePreReq": null,
      "deskripsi": "Perluasan Resiko akibat Huru Hara, Pemogokan, Perbuatan Jahat, Pergerakan Massa",
      "listNilaiPertanggungan": null,
      "listJumlahTertanggung": null,
      "rate": 0.00025,
      "status": 1
    },
    {
      "id": "pr4",
      "perluasanRisikoId": "Anakan",
      "namaPerluasanRisiko": "Anakan",
      "codeAsuransi": "JasaTania",
      "kategori": "ATS",
      "subKategori": "SI",
      "codePreReq": null,
      "deskripsi": "Perluasan Resiko akibat anakan meninggal pada saat kelahiran",
      "listNilaiPertanggungan": null,
      "listJumlahTertanggung": null,
      "rate": 0.00125,
      "status": 1
    },
    {
      "id": "pr5",
      "perluasanRisikoId": "Wabah",
      "namaPerluasanRisiko": "Wabah",
      "codeAsuransi": "JasaTania",
      "kategori": "ATS",
      "subKategori": "SI",
      "codePreReq": null,
      "deskripsi": "Perluasan Resiko akibat wabah",
      "listNilaiPertanggungan": null,
      "listJumlahTertanggung": null,
      "rate": 0.0015,
      "status": 1
    },
    {
      "id": "pr6",
      "perluasanRisikoId": "Kebakaran/Flexas",
      "namaPerluasanRisiko": "Kebakaran, Petir, Ledakan, Kejatuhan Pesawat, dan Asap",
      "codeAsuransi": "JasaTania",
      "kategori": "ATS",
      "subKategori": "SP",
      "codePreReq": null,
      "deskripsi": "Perlakuan Resiko akibat Kebakaran, Petir, Ledakan, Kejatuhan Pesawat, dan Asap",
      "listNilaiPertanggungan": null,
      "listJumlahTertanggung": null,
      "rate": 0.0001,
      "status": 1
    },
    {
      "id": "pr7",
      "perluasanRisikoId": "Gempa&Banjir",
      "namaPerluasanRisiko": "Gempa dan Banjir",
      "codeAsuransi": "JasaTania",
      "kategori": "ATS",
      "subKategori": "SP",
      "codePreReq": null,
      "deskripsi": "Perluasan Resiko akibat Gempa dan Banjir",
      "listNilaiPertanggungan": null,
      "listJumlahTertanggung": null,
      "rate": 0.001,
      "status": 1
    },
    {
      "id": "pr8",
      "perluasanRisikoId": "Huru Hara",
      "namaPerluasanRisiko": "Huru Hara",
      "codeAsuransi": "JasaTania",
      "kategori": "ATS",
      "subKategori": "SP",
      "codePreReq": null,
      "deskripsi": "Perluasan Resiko akibat Huru Hara, Pemogokan, Perbuatan Jahat, Pergerakan Massa",
      "listNilaiPertanggungan": null,
      "listJumlahTertanggung": null,
      "rate": 0.00025,
      "status": 1
    },
    {
      "id": "pr9",
      "perluasanRisikoId": "Wabah",
      "namaPerluasanRisiko": "Wabah",
      "codeAsuransi": "JasaTania",
      "kategori": "ATS",
      "subKategori": "SP",
      "codePreReq": null,
      "deskripsi": "Perluasan Resiko akibat wabah",
      "listNilaiPertanggungan": null,
      "listJumlahTertanggung": null,
      "rate": 0.0015,
      "status": 1
    }
  ],
  "Polis": [
    {
      "id": "a7ff",
      "polisDocId": "100.05.2024",
      "polisEndorsementNo": 0,
      "tglPolis": "12-May-2024",
      "tglPolisMillis": 1715493942397,
      "sppaId": "c6c6",
      "customerId": "SASPRI12-05",
      "alamatCustomer": "",
      "kantorCabang": "",
      "jenisObject": "",
      "alamatKandang": "",
      "namaTertanggung": "SASPRI12 qq  Sri Muryati",
      "hargaPertanggungan": 10000000,
      "premiRate": 0.011,
      "premiAmount": 110000,
      "biayaAdministrasi": 10000,
      "beaMaterei": 0,
      "salesId": "SASPRI12",
      "marketingId": "SASPRINAS",
      "brokerId": "ISTPRO",
      "namaAsuransi": "JasaTania",
      "produkName": "Asuransi Sapi Fattening Jasa Tania",
      "produkCode": "JTNATSSP1",
      "kategori": "ATS",
      "subKategori": "SP",
      "nilaiPertanggunganSppa": 10000000,
      "tenorSppa": 4,
      "invoiceNo": "100/SASPRI/2024",
      "tglInvoice": "12-May-2024",
      "invoiceAmount": 120000,
      "tglInvoiceMillis": 1715493942397,
      "tglPaymentDue": "13-Jun-2024",
      "tglPaymentDueMillis": 1718211600000,
      "tglPayment": "",
      "tglPaymentMillis": 0,
      "paymentTotalAmount": 0,
      "buktiPembayaranUrl": "",
      "paymentStatus": 0,
      "incomeDistributionStatus": 0,
      "tglIncomeDistributionProcess": "",
      "incomeDistributionProcessNo": 0,
      "tglAwalPolisMillis": 1715493942397,
      "tglAwalPolis": "12-May-2024",
      "warrantyDays": 0,
      "tglAkhirPolis": "13-Sep-2024",
      "tglAkhirPolisMillis": 1726160400000,
      "statusPolis": 2,
      "statusProses": 0
    }
  ],
  "SppaHeader": [
    {
      "sppaId": "",
      "customerId": "SASPRI12-05",
      "salesId": "SASPRI12",
      "marketingId": "SASPRINAS",
      "brokerId": "ISTPRO",
      "asuransiName": "JasaTania",
      "produkCode": "JTNATSSP1",
      "produkName": "Asuransi Sapi Fattening Jasa Tania",
      "kategori": "ATS",
      "subKategori": "SP",
      "statusSppa": 10,
      "nilaiPertanggungan": 10000000,
      "tenor": 4,
      "premiRate": 0.011,
      "premiAmount": 110000,
      "polisId": "a7ff",
      "id": "c6c6"
    },
    {
      "sppaId": "",
      "customerId": "SASPRI12-05",
      "salesId": "SASPRI12",
      "marketingId": "SASPRINAS",
      "brokerId": "ISTPRO",
      "asuransiName": "JasaTania",
      "produkCode": "JTNATSSP1",
      "produkName": "Asuransi Sapi Fattening Jasa Tania",
      "kategori": "ATS",
      "subKategori": "SP",
      "statusSppa": 10,
      "nilaiPertanggungan": 9000000,
      "tenor": 4,
      "premiRate": 0.011,
      "premiAmount": 99000,
      "polisId": "",
      "id": "0347"
    },
    {
      "sppaId": "",
      "customerId": "SASPRI12-05",
      "salesId": "SASPRI12",
      "marketingId": "SASPRINAS",
      "brokerId": "ISTPRO",
      "asuransiName": "JasaTania",
      "produkCode": "JTNATSSI1",
      "produkName": "Asuransi Sapi Breeding Jasa Tania",
      "kategori": "ATS",
      "subKategori": "SI",
      "statusSppa": 8,
      "nilaiPertanggungan": 9000000,
      "tenor": 12,
      "premiRate": 0.031,
      "premiAmount": 279000,
      "polisId": "bfd9",
      "id": "830e"
    },
    {
      "sppaId": "",
      "customerId": "SASPRI12-05",
      "salesId": "SASPRI12",
      "marketingId": "SASPRINAS",
      "brokerId": "ISTPRO",
      "asuransiName": "JasaTania",
      "produkCode": "JTNATSSP1",
      "produkName": "Asuransi Sapi Fattening Jasa Tania",
      "kategori": "ATS",
      "subKategori": "SP",
      "statusSppa": 4,
      "nilaiPertanggungan": 25000000,
      "tenor": 4,
      "premiRate": 0.013000000000000001,
      "premiAmount": 325000,
      "polisId": "",
      "id": "3315"
    },
    {
      "sppaId": "",
      "customerId": "SASPRI12-05",
      "salesId": "SASPRI12",
      "marketingId": "SASPRINAS",
      "brokerId": "ISTPRO",
      "asuransiName": "JasaTania",
      "produkCode": "JTNATSSI1",
      "produkName": "Asuransi Sapi Breeding Jasa Tania",
      "kategori": "ATS",
      "subKategori": "SI",
      "statusSppa": 6,
      "nilaiPertanggungan": 10000000,
      "tenor": 12,
      "premiRate": 0.03125,
      "premiAmount": 312500,
      "polisId": "",
      "id": "dd2e"
    },
    {
      "sppaId": "",
      "customerId": "SASPRI12-05",
      "salesId": "SASPRI12",
      "marketingId": "SASPRINAS",
      "brokerId": "ISTPRO",
      "asuransiName": "JasaTania",
      "produkCode": "JTNATSSP1",
      "produkName": "Asuransi Sapi Fattening Jasa Tania",
      "kategori": "ATS",
      "subKategori": "SP",
      "statusSppa": 4,
      "nilaiPertanggungan": 10000000,
      "tenor": 4,
      "premiRate": 0.01025,
      "premiAmount": 102500,
      "polisId": "",
      "id": "fb22"
    },
    {
      "sppaId": "",
      "customerId": "SASPRI12-05",
      "salesId": "SASPRI12",
      "marketingId": "SASPRINAS",
      "brokerId": "ISTPRO",
      "asuransiName": "JasaTania",
      "produkCode": "JTNATSSP1",
      "produkName": "Asuransi Sapi Fattening Jasa Tania",
      "kategori": "ATS",
      "subKategori": "SP",
      "statusSppa": 6,
      "nilaiPertanggungan": 14000000,
      "tenor": 4,
      "premiRate": 0.014750000000000001,
      "premiAmount": 206500,
      "polisId": "",
      "id": "f1f5"
    },
    {
      "sppaId": "",
      "customerId": "SASPRI12-05",
      "salesId": "SASPRI12",
      "marketingId": "SASPRINAS",
      "brokerId": "ISTPRO",
      "asuransiName": "JasaTania",
      "produkCode": "JTNATSSI1",
      "produkName": "Asuransi Sapi Breeding Jasa Tania",
      "kategori": "ATS",
      "subKategori": "SI",
      "statusSppa": 1,
      "nilaiPertanggungan": 35000000,
      "tenor": 12,
      "premiRate": 0.0235,
      "premiAmount": 822500,
      "polisId": "",
      "id": "51bf"
    },
    {
      "sppaId": "",
      "customerId": "SASPRI12-05",
      "salesId": "SASPRI12",
      "marketingId": "SASPRINAS",
      "brokerId": "ISTPRO",
      "asuransiName": "JasaTania",
      "produkCode": "JTNATSSI1",
      "produkName": "Asuransi Sapi Breeding Jasa Tania",
      "kategori": "ATS",
      "subKategori": "SI",
      "statusSppa": 8,
      "nilaiPertanggungan": 25000000,
      "tenor": 12,
      "premiRate": 0.0225,
      "premiAmount": 562500,
      "polisId": "",
      "id": "c292"
    },
    {
      "sppaId": "125-1205-24",
      "customerId": "SASPRI12-05",
      "salesId": "SASPRI12",
      "marketingId": "SASPRINAS",
      "brokerId": "ISTPRO",
      "asuransiName": "JasaTania",
      "produkCode": "JTNATSSP1",
      "produkName": "Asuransi Sapi Fattening Jasa Tania",
      "kategori": "ATS",
      "subKategori": "SP",
      "statusSppa": 1,
      "nilaiPertanggungan": 14000000,
      "tenor": 4,
      "premiRate": 0.01335,
      "premiAmount": 186900,
      "polisId": "",
      "id": "9ddc"
    },
    {
      "id": "5d57",
      "sppaId": "",
      "customerId": "SASPRI12-05",
      "salesId": "SASPRI12",
      "marketingId": "SASPRINAS",
      "brokerId": "ISTPRO",
      "asuransiName": "",
      "produkCode": "",
      "produkName": "",
      "kategori": "",
      "subKategori": "",
      "statusSppa": 0,
      "nilaiPertanggungan": 0,
      "tenor": 0,
      "premiRate": 0.0235,
      "premiAmount": 0,
      "polisId": ""
    }
  ],
  "SppaPerluasanRisiko": [
    {
      "id": "a718",
      "sppaId": "c6c6",
      "namaPerluasanRisiko": "Gempa dan Banjir",
      "rate": 0.001,
      "jumlahTertanggung": 0,
      "nilaiPerlindungan": 0,
      "tambahanPremi": 0,
      "polisId": "",
      "polisEndorsementId": ""
    },
    {
      "id": "d7df",
      "sppaId": "0347",
      "namaPerluasanRisiko": "Gempa dan Banjir",
      "rate": 0.001,
      "jumlahTertanggung": 0,
      "nilaiPerlindungan": 0,
      "tambahanPremi": 0,
      "polisId": "",
      "polisEndorsementId": ""
    },
    {
      "id": "702f",
      "sppaId": "830e",
      "namaPerluasanRisiko": "Gempa dan Banjir",
      "rate": 0.001,
      "jumlahTertanggung": 0,
      "nilaiPerlindungan": 0,
      "tambahanPremi": 0,
      "polisId": "",
      "polisEndorsementId": ""
    },
    {
      "id": "a431",
      "sppaId": "3315",
      "namaPerluasanRisiko": "Gempa dan Banjir",
      "rate": 0.001,
      "jumlahTertanggung": 0,
      "nilaiPerlindungan": 0,
      "tambahanPremi": 0,
      "polisId": "",
      "polisEndorsementId": ""
    },
    {
      "id": "e3f4",
      "sppaId": "dd2e",
      "namaPerluasanRisiko": "Anakan",
      "rate": 0.00125,
      "jumlahTertanggung": 0,
      "nilaiPerlindungan": 0,
      "tambahanPremi": 0,
      "polisId": "",
      "polisEndorsementId": ""
    },
    {
      "id": "78b2",
      "sppaId": "fb22",
      "namaPerluasanRisiko": "Huru Hara",
      "rate": 0.00025,
      "jumlahTertanggung": 0,
      "nilaiPerlindungan": 0,
      "tambahanPremi": 0,
      "polisId": "",
      "polisEndorsementId": ""
    },
    {
      "id": "0c34",
      "sppaId": "51bf",
      "namaPerluasanRisiko": "Gempa dan Banjir",
      "rate": 0.001,
      "jumlahTertanggung": 0,
      "nilaiPerlindungan": 0,
      "tambahanPremi": 0,
      "polisId": "",
      "polisEndorsementId": ""
    },
    {
      "sppaId": "51bf",
      "namaPerluasanRisiko": "Anakan",
      "rate": 0.00125,
      "jumlahTertanggung": 2,
      "nilaiPerlindungan": 5250000,
      "tambahanPremi": 6562.5,
      "polisId": "",
      "polisEndorsementId": "",
      "id": "ce63"
    },
    {
      "sppaId": "c292",
      "namaPerluasanRisiko": "Anakan",
      "rate": 0.00125,
      "jumlahTertanggung": 2,
      "nilaiPerlindungan": 3750000,
      "tambahanPremi": 4687.5,
      "polisId": "",
      "polisEndorsementId": "",
      "id": "8454"
    },
    {
      "id": "2476",
      "sppaId": "f1f5",
      "namaPerluasanRisiko": "Gempa dan Banjir",
      "rate": 0.001,
      "jumlahTertanggung": 0,
      "nilaiPerlindungan": 0,
      "tambahanPremi": 0,
      "polisId": "",
      "polisEndorsementId": ""
    },
    {
      "id": "8ba0",
      "sppaId": "f1f5",
      "namaPerluasanRisiko": "Huru Hara",
      "rate": 0.00025,
      "jumlahTertanggung": 0,
      "nilaiPerlindungan": 0,
      "tambahanPremi": 0,
      "polisId": "",
      "polisEndorsementId": ""
    },
    {
      "id": "683d",
      "sppaId": "f1f5",
      "namaPerluasanRisiko": "Wabah",
      "rate": 0.0015,
      "jumlahTertanggung": 0,
      "nilaiPerlindungan": 0,
      "tambahanPremi": 0,
      "polisId": "",
      "polisEndorsementId": ""
    },
    {
      "id": "e061",
      "sppaId": "9ddc",
      "namaPerluasanRisiko": "Kebakaran, Petir, Ledakan, Kejatuhan Pesawat, dan Asap",
      "rate": 0.0001,
      "jumlahTertanggung": 0,
      "nilaiPerlindungan": 0,
      "tambahanPremi": 0,
      "polisId": "",
      "polisEndorsementId": ""
    },
    {
      "id": "6613",
      "sppaId": "9ddc",
      "namaPerluasanRisiko": "Gempa dan Banjir",
      "rate": 0.001,
      "jumlahTertanggung": 0,
      "nilaiPerlindungan": 0,
      "tambahanPremi": 0,
      "polisId": "",
      "polisEndorsementId": ""
    },
    {
      "id": "5142",
      "sppaId": "9ddc",
      "namaPerluasanRisiko": "Huru Hara",
      "rate": 0.00025,
      "jumlahTertanggung": 0,
      "nilaiPerlindungan": 0,
      "tambahanPremi": 0,
      "polisId": "",
      "polisEndorsementId": ""
    },
    {
      "id": "be6b",
      "sppaId": "5d57",
      "namaPerluasanRisiko": "Gempa dan Banjir",
      "rate": 0.001,
      "jumlahTertanggung": 0,
      "nilaiPerlindungan": 0,
      "tambahanPremi": 0,
      "polisId": "",
      "polisEndorsementId": ""
    },
    {
      "id": "a0fa",
      "sppaId": "5d57",
      "namaPerluasanRisiko": "Anakan",
      "rate": 0.00125,
      "jumlahTertanggung": 0,
      "nilaiPerlindungan": 0,
      "tambahanPremi": 0,
      "polisId": "",
      "polisEndorsementId": ""
    }
  ],
  "SppaStatus": [
    {
      "sppaId": "c6c6",
      "statusSppa": 10,
      "initSubmitDtMillis": 1715493942397,
      "initSubmitDt": "12-May-2024",
      "tglReviewSalesMillis": 0,
      "tglReviewSales": "",
      "salesNote": "",
      "tglSubmitSalesMillis": 1715494236801,
      "tglSubmitSales": "12-May-2024",
      "tglReviewMarketing": "",
      "tglReviewMarketingMillis": 0,
      "marketingNote": "",
      "tglSubmitMarketing": "12-May-2024",
      "tglSubmitMarketingMillis": 1715494278304,
      "tglRecapMillis": 0,
      "tglRecap": "",
      "recapSppaId": "",
      "tglReviewBroker": "",
      "tglReviewBrokerMillis": 0,
      "brokerNote": "",
      "tglSubmitBrokerMillis": 1715494331122,
      "tglSubmitBroker": "12-May-2024",
      "tglResponseAsuransiMillis": 1715493942397,
      "tglResponseAsuransi": "12-May-2024",
      "statusResponseAsuransi": 1,
      "asuransiNote": "",
      "tglCreated": "25-Apr-2024",
      "tglCreatedMillis": 1714030997306,
      "tglLastUpdate": "13-May-2024",
      "tglLastUpdateMillis": 1715619239674,
      "id": "d12d"
    },
    {
      "sppaId": "0347",
      "statusSppa": 8,
      "initSubmitDtMillis": 1714058839154,
      "initSubmitDt": "25-Apr-2024",
      "tglReviewSalesMillis": 1714057819650,
      "tglReviewSales": "25-Apr-2024",
      "salesNote": "",
      "tglSubmitSalesMillis": 1714058863088,
      "tglSubmitSales": "25-Apr-2024",
      "tglReviewMarketing": "",
      "tglReviewMarketingMillis": 0,
      "marketingNote": "",
      "tglSubmitMarketing": "25-Apr-2024",
      "tglSubmitMarketingMillis": 1714060527427,
      "tglRecapMillis": 0,
      "tglRecap": "",
      "recapSppaId": "",
      "tglReviewBroker": "",
      "tglReviewBrokerMillis": 0,
      "brokerNote": "",
      "tglSubmitBrokerMillis": 1714063579826,
      "tglSubmitBroker": "25-Apr-2024",
      "tglResponseAsuransiMillis": 0,
      "tglResponseAsuransi": "",
      "statusResponseAsuransi": 0,
      "asuransiNote": "",
      "tglCreated": "25-Apr-2024",
      "tglCreatedMillis": 1714040350118,
      "tglLastUpdate": "13-May-2024",
      "tglLastUpdateMillis": 1715610820866,
      "id": "4e69"
    },
    {
      "sppaId": "830e",
      "statusSppa": 8,
      "initSubmitDtMillis": 1714062862900,
      "initSubmitDt": "25-Apr-2024",
      "tglReviewSalesMillis": 1714062359682,
      "tglReviewSales": "25-Apr-2024",
      "salesNote": "",
      "tglSubmitSalesMillis": 1714063037072,
      "tglSubmitSales": "25-Apr-2024",
      "tglReviewMarketing": "25-Apr-2024",
      "tglReviewMarketingMillis": 1714060630209,
      "marketingNote": "",
      "tglSubmitMarketing": "25-Apr-2024",
      "tglSubmitMarketingMillis": 1714063555410,
      "tglRecapMillis": 0,
      "tglRecap": "",
      "recapSppaId": "",
      "tglReviewBroker": "",
      "tglReviewBrokerMillis": 0,
      "brokerNote": "",
      "tglSubmitBrokerMillis": 1714398435140,
      "tglSubmitBroker": "29-Apr-2024",
      "tglResponseAsuransiMillis": 0,
      "tglResponseAsuransi": "",
      "statusResponseAsuransi": 0,
      "asuransiNote": "",
      "tglCreated": "25-Apr-2024",
      "tglCreatedMillis": 1714040746117,
      "tglLastUpdate": "30-Apr-2024",
      "tglLastUpdateMillis": 1714462588555,
      "id": "b173"
    },
    {
      "sppaId": "3315",
      "statusSppa": 4,
      "initSubmitDtMillis": 1715596134293,
      "initSubmitDt": "13-May-2024",
      "tglReviewSalesMillis": 1715595952864,
      "tglReviewSales": "13-May-2024",
      "salesNote": "",
      "tglSubmitSalesMillis": 1715596235101,
      "tglSubmitSales": "13-May-2024",
      "tglReviewMarketing": "",
      "tglReviewMarketingMillis": 0,
      "marketingNote": "",
      "tglSubmitMarketing": "",
      "tglSubmitMarketingMillis": 0,
      "tglRecapMillis": 0,
      "tglRecap": "",
      "recapSppaId": "",
      "tglReviewBroker": "",
      "tglReviewBrokerMillis": 0,
      "brokerNote": "",
      "tglSubmitBrokerMillis": 0,
      "tglSubmitBroker": "",
      "tglResponseAsuransiMillis": 0,
      "tglResponseAsuransi": "",
      "statusResponseAsuransi": 0,
      "asuransiNote": "",
      "tglCreated": "01-May-2024",
      "tglCreatedMillis": 1714533751110,
      "tglLastUpdate": "13-May-2024",
      "tglLastUpdateMillis": 1715596134293,
      "id": "3aab"
    },
    {
      "sppaId": "dd2e",
      "statusSppa": 6,
      "initSubmitDtMillis": 0,
      "initSubmitDt": "",
      "tglReviewSalesMillis": 0,
      "tglReviewSales": "",
      "salesNote": "",
      "tglSubmitSalesMillis": 1715182896142,
      "tglSubmitSales": "08-May-2024",
      "tglReviewMarketing": "",
      "tglReviewMarketingMillis": 0,
      "marketingNote": "",
      "tglSubmitMarketing": "08-May-2024",
      "tglSubmitMarketingMillis": 1715183006153,
      "tglRecapMillis": 0,
      "tglRecap": "",
      "recapSppaId": "",
      "tglReviewBroker": "",
      "tglReviewBrokerMillis": 0,
      "brokerNote": "",
      "tglSubmitBrokerMillis": 0,
      "tglSubmitBroker": "",
      "tglResponseAsuransiMillis": 0,
      "tglResponseAsuransi": "",
      "statusResponseAsuransi": 0,
      "asuransiNote": "",
      "tglCreated": "01-May-2024",
      "tglCreatedMillis": 1714534625157,
      "tglLastUpdate": "",
      "tglLastUpdateMillis": 0,
      "id": "157a"
    },
    {
      "sppaId": "fb22",
      "statusSppa": 4,
      "initSubmitDtMillis": 1714535573334,
      "initSubmitDt": "01-May-2024",
      "tglReviewSalesMillis": 0,
      "tglReviewSales": "",
      "salesNote": "",
      "tglSubmitSalesMillis": 1714536078686,
      "tglSubmitSales": "01-May-2024",
      "tglReviewMarketing": "",
      "tglReviewMarketingMillis": 0,
      "marketingNote": "",
      "tglSubmitMarketing": "",
      "tglSubmitMarketingMillis": 0,
      "tglRecapMillis": 0,
      "tglRecap": "",
      "recapSppaId": "",
      "tglReviewBroker": "",
      "tglReviewBrokerMillis": 0,
      "brokerNote": "",
      "tglSubmitBrokerMillis": 0,
      "tglSubmitBroker": "",
      "tglResponseAsuransiMillis": 0,
      "tglResponseAsuransi": "",
      "statusResponseAsuransi": 0,
      "asuransiNote": "",
      "tglCreated": "01-May-2024",
      "tglCreatedMillis": 1714535168469,
      "tglLastUpdate": "01-May-2024",
      "tglLastUpdateMillis": 1714535573334,
      "id": "2e8f"
    },
    {
      "sppaId": "f1f5",
      "statusSppa": 6,
      "initSubmitDtMillis": 1715608610762,
      "initSubmitDt": "13-May-2024",
      "tglReviewSalesMillis": 1715608499472,
      "tglReviewSales": "13-May-2024",
      "salesNote": "",
      "tglSubmitSalesMillis": 1715608636256,
      "tglSubmitSales": "13-May-2024",
      "tglReviewMarketing": "",
      "tglReviewMarketingMillis": 0,
      "marketingNote": "",
      "tglSubmitMarketing": "13-May-2024",
      "tglSubmitMarketingMillis": 1715608663844,
      "tglRecapMillis": 0,
      "tglRecap": "",
      "recapSppaId": "",
      "tglReviewBroker": "",
      "tglReviewBrokerMillis": 0,
      "brokerNote": "",
      "tglSubmitBrokerMillis": 0,
      "tglSubmitBroker": "",
      "tglResponseAsuransiMillis": 0,
      "tglResponseAsuransi": "",
      "statusResponseAsuransi": 0,
      "asuransiNote": "",
      "tglCreated": "12-May-2024",
      "tglCreatedMillis": 1715496252361,
      "tglLastUpdate": "13-May-2024",
      "tglLastUpdateMillis": 1715608610762,
      "id": "555e"
    },
    {
      "id": "01f6",
      "sppaId": "51bf",
      "statusSppa": 1,
      "initSubmitDtMillis": 0,
      "initSubmitDt": "",
      "tglReviewSalesMillis": 0,
      "tglReviewSales": "",
      "salesNote": "",
      "tglSubmitSalesMillis": 0,
      "tglSubmitSales": "",
      "tglReviewMarketing": "",
      "tglReviewMarketingMillis": 0,
      "marketingNote": "",
      "tglSubmitMarketing": "",
      "tglSubmitMarketingMillis": 0,
      "tglRecapMillis": 0,
      "tglRecap": "",
      "recapSppaId": "",
      "tglReviewBroker": "",
      "tglReviewBrokerMillis": 0,
      "brokerNote": "",
      "tglSubmitBrokerMillis": 0,
      "tglSubmitBroker": "",
      "tglResponseAsuransiMillis": 0,
      "tglResponseAsuransi": "",
      "statusResponseAsuransi": 0,
      "asuransiNote": "",
      "tglCreated": "12-May-2024",
      "tglCreatedMillis": 1715513958457,
      "tglLastUpdate": "",
      "tglLastUpdateMillis": 0
    },
    {
      "sppaId": "c292",
      "statusSppa": 8,
      "initSubmitDtMillis": 1715536044463,
      "initSubmitDt": "13-May-2024",
      "tglReviewSalesMillis": 0,
      "tglReviewSales": "",
      "salesNote": "",
      "tglSubmitSalesMillis": 1715536070662,
      "tglSubmitSales": "13-May-2024",
      "tglReviewMarketing": "",
      "tglReviewMarketingMillis": 0,
      "marketingNote": "",
      "tglSubmitMarketing": "13-May-2024",
      "tglSubmitMarketingMillis": 1715536102845,
      "tglRecapMillis": 0,
      "tglRecap": "",
      "recapSppaId": "",
      "tglReviewBroker": "",
      "tglReviewBrokerMillis": 0,
      "brokerNote": "",
      "tglSubmitBrokerMillis": 1715536124920,
      "tglSubmitBroker": "13-May-2024",
      "tglResponseAsuransiMillis": 0,
      "tglResponseAsuransi": "",
      "statusResponseAsuransi": 0,
      "asuransiNote": "",
      "tglCreated": "12-May-2024",
      "tglCreatedMillis": 1715521606600,
      "tglLastUpdate": "13-May-2024",
      "tglLastUpdateMillis": 1715538252888,
      "id": "7404"
    },
    {
      "sppaId": "9ddc",
      "statusSppa": 1,
      "initSubmitDtMillis": 1715614467673,
      "initSubmitDt": "13-May-2024",
      "tglReviewSalesMillis": 1715614575476,
      "tglReviewSales": "13-May-2024",
      "salesNote": "Sapi ini barusan sakit kan...",
      "tglSubmitSalesMillis": 0,
      "tglSubmitSales": "",
      "tglReviewMarketing": "",
      "tglReviewMarketingMillis": 0,
      "marketingNote": "",
      "tglSubmitMarketing": "",
      "tglSubmitMarketingMillis": 0,
      "tglRecapMillis": 0,
      "tglRecap": "",
      "recapSppaId": "",
      "tglReviewBroker": "",
      "tglReviewBrokerMillis": 0,
      "brokerNote": "",
      "tglSubmitBrokerMillis": 0,
      "tglSubmitBroker": "",
      "tglResponseAsuransiMillis": 0,
      "tglResponseAsuransi": "",
      "statusResponseAsuransi": 0,
      "asuransiNote": "",
      "tglCreated": "13-May-2024",
      "tglCreatedMillis": 1715576428447,
      "tglLastUpdate": "13-May-2024",
      "tglLastUpdateMillis": 1715614611763,
      "id": "84ed"
    },
    {
      "id": "ba89",
      "sppaId": "5d57",
      "statusSppa": 1,
      "initSubmitDtMillis": 0,
      "initSubmitDt": "",
      "tglReviewSalesMillis": 0,
      "tglReviewSales": "",
      "salesNote": "",
      "tglSubmitSalesMillis": 0,
      "tglSubmitSales": "",
      "tglReviewMarketing": "",
      "tglReviewMarketingMillis": 0,
      "marketingNote": "",
      "tglSubmitMarketing": "",
      "tglSubmitMarketingMillis": 0,
      "tglRecapMillis": 0,
      "tglRecap": "",
      "recapSppaId": "",
      "tglReviewBroker": "",
      "tglReviewBrokerMillis": 0,
      "brokerNote": "",
      "tglSubmitBrokerMillis": 0,
      "tglSubmitBroker": "",
      "tglResponseAsuransiMillis": 0,
      "tglResponseAsuransi": "",
      "statusResponseAsuransi": 0,
      "asuransiNote": "",
      "tglCreated": "16-May-2024",
      "tglCreatedMillis": 1715836321221,
      "tglLastUpdate": "",
      "tglLastUpdateMillis": 0
    }
  ],
  "TernakSapi": [
    {
      "sppaId": "c6c6",
      "seqNo": 1,
      "nama": "SO - 1234",
      "earTag": "1234",
      "tglLahirMillis": 1619283600000,
      "tglLahir": "25-Apr-2021",
      "jenis": "SO",
      "kelamin": "Jantan",
      "hargaPerolehan": 10000000,
      "nilaiPertanggungan": 10000000,
      "status": 1,
      "polisId": "a7ff",
      "polisEndorsementId": "",
      "klaimId": "",
      "id": "0195"
    },
    {
      "sppaId": "0347",
      "seqNo": 1,
      "nama": "SO - 1122",
      "earTag": "1122",
      "tglLahirMillis": 1682355600000,
      "tglLahir": "25-Apr-2023",
      "jenis": "SO",
      "kelamin": "Jantan",
      "hargaPerolehan": 9000000,
      "nilaiPertanggungan": 9000000,
      "status": 1,
      "polisId": "",
      "polisEndorsementId": "",
      "klaimId": "",
      "id": "d968"
    },
    {
      "sppaId": "830e",
      "seqNo": 1,
      "nama": "Bali - 2233",
      "earTag": "2233",
      "tglLahirMillis": 1714062681329,
      "tglLahir": "25-Apr-2024",
      "jenis": "Bali",
      "kelamin": "Betina",
      "hargaPerolehan": 9000000,
      "nilaiPertanggungan": 9000000,
      "status": 0,
      "polisId": "",
      "polisEndorsementId": "",
      "klaimId": "",
      "id": "0dd2"
    },
    {
      "id": "3503",
      "sppaId": "dd2e",
      "seqNo": 1,
      "nama": "SO - 98766",
      "earTag": "98766",
      "tglLahirMillis": 1651338000000,
      "tglLahir": "01-May-2022",
      "jenis": "SO",
      "kelamin": "Betina",
      "hargaPerolehan": 10000000,
      "nilaiPertanggungan": 10000000,
      "status": 0,
      "polisId": "",
      "polisEndorsementId": "",
      "klaimId": ""
    },
    {
      "id": "f034",
      "sppaId": "fb22",
      "seqNo": 1,
      "nama": "SO - 334455",
      "earTag": "334455",
      "tglLahirMillis": 1651338000000,
      "tglLahir": "01-May-2022",
      "jenis": "SO",
      "kelamin": "Jantan",
      "hargaPerolehan": 10000000,
      "nilaiPertanggungan": 10000000,
      "status": 0,
      "polisId": "",
      "polisEndorsementId": "",
      "klaimId": ""
    },
    {
      "sppaId": "c292",
      "seqNo": 1,
      "nama": "PO - 224680",
      "earTag": "224680",
      "tglLahirMillis": 1652288400000,
      "tglLahir": "12-May-2022",
      "jenis": "PO",
      "kelamin": "Betina",
      "hargaPerolehan": 13000000,
      "nilaiPertanggungan": 13000000,
      "status": 1,
      "polisId": "",
      "polisEndorsementId": "",
      "klaimId": "",
      "id": "b5d5"
    },
    {
      "sppaId": "c292",
      "seqNo": 1,
      "nama": "PO - 332468",
      "earTag": "332468",
      "tglLahirMillis": 1620752400000,
      "tglLahir": "12-May-2021",
      "jenis": "PO",
      "kelamin": "Betina",
      "hargaPerolehan": 12000000,
      "nilaiPertanggungan": 12000000,
      "status": 1,
      "polisId": "",
      "polisEndorsementId": "",
      "klaimId": "",
      "id": "2ab4"
    },
    {
      "id": "3bbb",
      "sppaId": "3315",
      "seqNo": 1,
      "nama": "SO - 223311",
      "earTag": "223311",
      "tglLahirMillis": 1646067600000,
      "tglLahir": "01-Mar-2022",
      "jenis": "SO",
      "kelamin": "Jantan",
      "hargaPerolehan": 15000000,
      "nilaiPertanggungan": 15000000,
      "status": 0,
      "polisId": "",
      "polisEndorsementId": "",
      "klaimId": ""
    },
    {
      "id": "af6d",
      "sppaId": "3315",
      "seqNo": 1,
      "nama": "Bali - 443322",
      "earTag": "443322",
      "tglLahirMillis": 1646067600000,
      "tglLahir": "01-Mar-2022",
      "jenis": "Bali",
      "kelamin": "Jantan",
      "hargaPerolehan": 10000000,
      "nilaiPertanggungan": 10000000,
      "status": 0,
      "polisId": "",
      "polisEndorsementId": "",
      "klaimId": ""
    },
    {
      "id": "200f",
      "sppaId": "f1f5",
      "seqNo": 1,
      "nama": "SO - 665544",
      "earTag": "665544",
      "tglLahirMillis": 1614531600000,
      "tglLahir": "01-Mar-2021",
      "jenis": "SO",
      "kelamin": "Jantan",
      "hargaPerolehan": 14000000,
      "nilaiPertanggungan": 14000000,
      "status": 0,
      "polisId": "",
      "polisEndorsementId": "",
      "klaimId": ""
    },
    {
      "id": "ca33",
      "sppaId": "51bf",
      "seqNo": 1,
      "nama": "SO - 557799",
      "earTag": "557799",
      "tglLahirMillis": 1612112400000,
      "tglLahir": "01-Feb-2021",
      "jenis": "SO",
      "kelamin": "Betina",
      "hargaPerolehan": 17000000,
      "nilaiPertanggungan": 17000000,
      "status": 0,
      "polisId": "",
      "polisEndorsementId": "",
      "klaimId": ""
    },
    {
      "id": "284c",
      "sppaId": "51bf",
      "seqNo": 1,
      "nama": "SO - 557800",
      "earTag": "557800",
      "tglLahirMillis": 1612112400000,
      "tglLahir": "01-Feb-2021",
      "jenis": "SO",
      "kelamin": "Betina",
      "hargaPerolehan": 18000000,
      "nilaiPertanggungan": 18000000,
      "status": 0,
      "polisId": "",
      "polisEndorsementId": "",
      "klaimId": ""
    },
    {
      "id": "1d0a",
      "sppaId": "9ddc",
      "seqNo": 1,
      "nama": "BX - 667788",
      "earTag": "667788",
      "tglLahirMillis": 1656608400000,
      "tglLahir": "01-Jul-2022",
      "jenis": "BX",
      "kelamin": "Jantan",
      "hargaPerolehan": 14000000,
      "nilaiPertanggungan": 14000000,
      "status": 0,
      "polisId": "",
      "polisEndorsementId": "",
      "klaimId": ""
    }
  ],
  "InfoAtsJasTan": [
    {
      "sppaId": "c6c6",
      "lokasiKandang": "samping rumah, kandang permanen,  air ad libitum",
      "kriteriaPemeliharaan": "Semi Intensif",
      "sistemPakanTernak": "Kombinasi",
      "infoMgmtKandang": "",
      "infoMgmtPakan": "",
      "infoMgmtKesehatan": "",
      "id": "d018"
    },
    {
      "id": "6738",
      "sppaId": "0347",
      "lokasiKandang": "Masih disamping rumah",
      "kriteriaPemeliharaan": "Ekstensif",
      "sistemPakanTernak": "Dry Lot",
      "infoMgmtKandang": "",
      "infoMgmtPakan": "",
      "infoMgmtKesehatan": ""
    },
    {
      "id": "c3c0",
      "sppaId": "830e",
      "lokasiKandang": "tetep samping rumah",
      "kriteriaPemeliharaan": "Ekstensif",
      "sistemPakanTernak": "Dry Lot",
      "infoMgmtKandang": "",
      "infoMgmtPakan": "",
      "infoMgmtKesehatan": ""
    },
    {
      "id": "ee4a",
      "sppaId": "3315",
      "lokasiKandang": "Rumah",
      "kriteriaPemeliharaan": "Ekstensif",
      "sistemPakanTernak": "Dry Lot",
      "infoMgmtKandang": "",
      "infoMgmtPakan": "",
      "infoMgmtKesehatan": ""
    },
    {
      "id": "b4bb",
      "sppaId": "dd2e",
      "lokasiKandang": "rumah",
      "kriteriaPemeliharaan": "Ekstensif",
      "sistemPakanTernak": "Dry Lot",
      "infoMgmtKandang": "",
      "infoMgmtPakan": "",
      "infoMgmtKesehatan": ""
    },
    {
      "id": "a6c7",
      "sppaId": "fb22",
      "lokasiKandang": "komunal",
      "kriteriaPemeliharaan": "Ekstensif",
      "sistemPakanTernak": "Dry Lot",
      "infoMgmtKandang": "",
      "infoMgmtPakan": "",
      "infoMgmtKesehatan": ""
    },
    {
      "sppaId": "f1f5",
      "lokasiKandang": "rumah",
      "kriteriaPemeliharaan": "Ekstensif",
      "sistemPakanTernak": "Dry Lot",
      "infoMgmtKandang": "",
      "infoMgmtPakan": "",
      "infoMgmtKesehatan": "",
      "id": "2de9"
    },
    {
      "id": "c563",
      "sppaId": "51bf",
      "lokasiKandang": "Samping rumah",
      "kriteriaPemeliharaan": "Ekstensif",
      "sistemPakanTernak": "Dry Lot",
      "infoMgmtKandang": "",
      "infoMgmtPakan": "",
      "infoMgmtKesehatan": ""
    },
    {
      "id": "5ac6",
      "sppaId": "c292",
      "lokasiKandang": "Samping rumah",
      "kriteriaPemeliharaan": "Ekstensif",
      "sistemPakanTernak": "Dry Lot",
      "infoMgmtKandang": "",
      "infoMgmtPakan": "",
      "infoMgmtKesehatan": ""
    },
    {
      "id": "0f8a",
      "sppaId": "9ddc",
      "lokasiKandang": "Komunal 1",
      "kriteriaPemeliharaan": "Ekstensif",
      "sistemPakanTernak": "Dry Lot",
      "infoMgmtKandang": "",
      "infoMgmtPakan": "",
      "infoMgmtKesehatan": ""
    },
    {
      "id": "12a9",
      "sppaId": "5d57",
      "lokasiKandang": "",
      "kriteriaPemeliharaan": "Ekstensif",
      "sistemPakanTernak": "Pasture Fattening",
      "infoMgmtKandang": "",
      "infoMgmtPakan": "",
      "infoMgmtKesehatan": ""
    }
  ],
  "RecapSppaHeader": [],
  "RecapSppaStatus": [],
  "RecapSppaDetail": [],
  "SppaCounters": [
    {
      "custProfileCounter": 0,
      "salesCounter": 0,
      "marketingCounter": 0,
      "sppaCounter": 0,
      "ternakCounter": 0,
      "id": "cc99"
    }
  ]
}