{
  "Customer2": [
    {
      "id": "SASPRI12-10",
      "type": "type",
      "name": "Mukiban Saleh",
      "noHp": "0341122334455",
      "email": "s2@email.id",
      "pekerjaan": "Peternak",
      "kelompok": "SASPRI12",
      "noAnggota": "10",
      "jalan": "jl. satu no 2",
      "rt": "03",
      "rw": "003",
      "kelurahan": "Karang Asem",
      "kecamatan": "Banjaran",
      "kota": "Banjarnegara",
      "kabupaten": "Banjarnegara",
      "kodePos": "45312",
      "bankName": "BRI",
      "bankAccountNumber": "512001002002",
      "bankAccountNama": "Mukiban Saleh",
      "ktp": "1234093456780012",
      "dob": "17/09/1972",
      "pob": "Banjarnegara",
      "imei": "",
      "roles": "ROLE_CUSTOMER",
      "alias": "",
      "status": "Aktif",
      "tglRegistrasiMillis": 100000000,
      "tglRegistrasi": "20/03/2024",
      "account": "account",
      "accountNonExpired": true,
      "enabled": true,
      "locked": false,
      "expired": false,
      "userTypes": "Normal",
      "trial": 1,
      "chain": "SASPRI12",
      "salesId": "SASPRI12",
      "marketingId": "SASPRINAS",
      "brokerId": "ISTPRO",
      "responseCode": "responseCode",
      "responseMessage": "responseMessage",
      "partner": "IstPro",
      "classification": "classification"
    },
    {
      "id": "SASPRI12-05",
      "type": "type",
      "name": "Sri Muryati",
      "noHp": "0341456789000",
      "email": "s1@email.id",
      "pekerjaan": "Peternak",
      "kelompok": "SASPRI12",
      "noAnggota": "05",
      "jalan": "jl. togog no 2",
      "rt": "04",
      "rw": "004",
      "kelurahan": "Karang Asem",
      "kecamatan": "Banjaran",
      "kota": "Banjarnegara",
      "kabupaten": "Banjarnegara",
      "kodePos": "45312",
      "bankName": "BRI",
      "bankAccountNumber": "51288099299300",
      "bankAccountNama": "Bu Sri Muryati ",
      "ktp": "32762312120200021",
      "dob": "17/09/1972",
      "pob": "Banjarnegara",
      "imei": "",
      "roles": "ROLE_CUSTOMER",
      "alias": "",
      "status": "Aktif",
      "tglRegistrasiMillis": 100000000,
      "tglRegistrasi": "20/03/2024",
      "account": "account",
      "accountNonExpired": true,
      "enabled": true,
      "locked": false,
      "expired": false,
      "userTypes": "Normal",
      "trial": 1,
      "chain": "SASPRI12",
      "salesId": "SASPRI12",
      "marketingId": "SASPRINAS",
      "brokerId": "ISTPRO",
      "responseCode": "responseCode",
      "responseMessage": "responseMessage",
      "partner": "IstPro",
      "classification": "classification"
    }
  ],
  "KandangSapi": [
    {
      "customerId": "SASPRI12-10",
      "namaKandang": "Rumah",
      "jalan": "idem rumah",
      "rt": "idem",
      "rw": "idem",
      "kelurahan": "idem",
      "kecamatan": "idem",
      "kota": "idem",
      "kabupaten": "idem juga",
      "kodePos": "juga",
      "luas": 15,
      "kapasitas": 2,
      "jenis": "Permanen",
      "foto1": "",
      "foto2": "",
      "foto3": "",
      "fasilitas": "full fasilitas",
      "status": "",
      "id": "9173"
    },
    {
      "id": "c8f3",
      "customerId": "SASPRI12-10",
      "namaKandang": "Komunal 1",
      "jalan": "ujung desa",
      "rt": "00",
      "rw": "00",
      "kelurahan": "idem",
      "kecamatan": "idem",
      "kota": "idem",
      "kabupaten": "idem",
      "kodePos": "idem",
      "luas": 200,
      "kapasitas": 30,
      "jenis": "Kandang bersama semi permanen",
      "foto1": "",
      "foto2": "",
      "foto3": "",
      "fasilitas": "full fasilitas dan pengamanan 24 jam dengan cctv, perawatan secara bersama",
      "status": ""
    }
  ],
  "Customer": [
    {
      "id": "10",
      "customerId": "SASPRI12-10",
      "fullName": "Mukiban Saleh",
      "alamat": {
        "jalan": "jl. satu no 2",
        "rt": "002",
        "rw": "012",
        "kelurahan": "Warung Jati",
        "kecamatan": "Pancoran",
        "kota": "Jakarta Selatan",
        "tipeDati2": "Kota",
        "namaDati2": "Jakarta Selatan",
        "kodePos": "12750"
      },
      "ktp": "1234093456780012",
      "npwp": "",
      "noTelp": "08113456767",
      "email": "kibal.saleh@email.id",
      "pekerjaan": "peternak",
      "alamatKantor": null,
      "salesId": "SASPRI12",
      "marketingId": "SASPRINAS",
      "brokerId": "1",
      "bankAccount": null,
      "codeUpline": "",
      "custGroupCode": "SASPRI12",
      "groupName": "Kelompok Peternak Maju Terus",
      "registeredDt": 100000012,
      "status": "Aktif"
    },
    {
      "id": "7416",
      "customerId": "SASPRI12-05",
      "fullName": "Sri Muryati",
      "alamat": {
        "jalan": "jl. togo no 2",
        "rt": "001",
        "rw": "010",
        "kelurahan": "Menteng Dalem",
        "kecamatan": "Menteng",
        "kota": "Jakarta Selatan",
        "tipeDati2": "Kota",
        "namaDati2": "Jakarta Selatan",
        "kodePos": "12550"
      },
      "ktp": "123400456780012",
      "npwp": "",
      "noTelp": "07883456123",
      "email": "Sri.Muryati@email.id",
      "pekerjaan": "peternak",
      "alamatKantor": null,
      "salesId": "SASPRI12",
      "marketingId": "SASPRINAS",
      "brokerId": "1",
      "bankAccount": null,
      "codeUpline": "",
      "custGroupCode": "SASPRI12`",
      "groupName": "Kelompok Peternak Sejahtera",
      "registeredDt": 100000012,
      "status": "Aktif"
    }
  ],
  "KategoriProduk": [
    {
      "id": "1",
      "kategoriCode": "ATS",
      "subKategoriCode": "SP",
      "kategoriDeskripsi": "Sapi Fattening",
      "iconFilename": "assets/icon/icon_ats_sp_trspn.png",
      "status": 1
    },
    {
      "id": "2",
      "kategoriCode": "ATS",
      "subKategoriCode": "SI",
      "kategoriDeskripsi": "Sapi Breeding",
      "iconFilename": "assets/icon/icon_ats_si_trspn.png",
      "status": 1
    },
    {
      "id": "3",
      "kategoriCode": "ATS",
      "subKategoriCode": "SO",
      "kategoriDeskripsi": "Sapi Pejantan",
      "iconFilename": "assets/icon/icon_ats_so.png",
      "status": 1
    }
  ],
  "ProdukAsuransi": [
    {
      "id": "1",
      "productCode": "JNDATSSP1",
      "productName": "Asuransi Sapi Fattening Jasindo",
      "productKategori": "ATS",
      "productSubKategori": "SP",
      "codeAsuransi": "Jasindo",
      "productShortDescription": "Perlindungan dari risiko akibat meninggal karena penyakit, kecelakaan atau pencurian.",
      "productLongDescription": "Perlindungan dari risiko akibat meninggal karena penyakit, kecelakaan atau pencurian.",
      "manfaatShort": [
        "1. Pengurusan Cepat",
        "2. Klaim Cepat",
        "3. Premi kompetitif"
      ],
      "manfaatAdditional": [
        "4. Tersedia bantuan premi pemerintah."
      ],
      "pengecualianShort": [
        "1. Kematian atas wabah yang diumumkan oleh Pemerintah",
        "2. Pengawasan kesehatan yang tidak teratur."
      ],
      "pengecualianAdditional": [
        ""
      ],
      "tncDescription": [
        "tncDescription"
      ],
      "klaimDescription": [
        "klaimDescription"
      ],
      "rateCalculationMethod": "Normal",
      "status": 1,
      "ratePremi": 0.011,
      "tenor": 4,
      "logoUri": "assets/icon/icon_bull2.png"
    },
    {
      "id": "2",
      "productCode": "JNDATSSI1",
      "productName": "Asuransi Sapi Breeding Jasindo",
      "productKategori": "ATS",
      "productSubKategori": "SI",
      "codeAsuransi": "Jasindo",
      "productShortDescription": "Perlindungan dari risiko akibat meninggal karena penyakit, kecelakaan atau pencurian.",
      "productLongDescription": "Perlindungan dari risiko akibat meninggal karena penyakit, kecelakaan atau pencurian.",
      "manfaatShort": [
        "1. Pengurusan Cepat",
        "2. Klaim Cepat",
        "3. Premi kompetitif"
      ],
      "manfaatAdditional": [
        "4. Tersedia bantuan premi pemerintah."
      ],
      "pengecualianShort": [
        "1. Kematian atas wabah yang diumumkan oleh Pemerintah",
        "2. Pengawasan kesehatan yang tidak teratur."
      ],
      "pengecualianAdditional": [
        ""
      ],
      "tncDescription": [
        "tncDescription"
      ],
      "klaimDescription": [
        "klaimDescription"
      ],
      "rateCalculationMethod": "Normal",
      "status": 1,
      "ratePremi": 0.033,
      "tenor": 12,
      "logoUri": "assets/icon/icon_cow2.png"
    },
    {
      "id": "3",
      "productCode": "JTNATSSP1",
      "productName": "Asuransi Sapi Fattening Jasa Tania",
      "productKategori": "ATS",
      "productSubKategori": "SP",
      "codeAsuransi": "JasaTania",
      "productShortDescription": "Perlindungan dari risiko akibat meninggal karena penyakit, kecelakaan atau pencurian.",
      "productLongDescription": "Perlindungan dari risiko akibat meninggal karena penyakit, kecelakaan atau pencurian.",
      "manfaatShort": [
        "1. Pengurusan Cepat",
        "2. Klaim Cepat",
        "3. Premi kompetitif"
      ],
      "manfaatAdditional": [
        "4. Tersedia bantuan premi pemerintah."
      ],
      "pengecualianShort": [
        "1. Kematian atas wabah yang diumumkan oleh Pemerintah",
        "2. Pengawasan kesehatan yang tidak teratur."
      ],
      "pengecualianAdditional": [
        ""
      ],
      "tncDescription": [
        "tncDescription"
      ],
      "klaimDescription": [
        "klaimDescription"
      ],
      "rateCalculationMethod": "Normal",
      "status": 1,
      "ratePremi": 0.01,
      "tenor": 4,
      "logoUri": "assets/icon/icon_bull2.png"
    },
    {
      "id": "4",
      "productCode": "JTNATSSI1",
      "productName": "Asuransi Sapi Breeding Jasa Tania",
      "productKategori": "ATS",
      "productSubKategori": "SI",
      "codeAsuransi": "JasaTania",
      "productShortDescription": "Perlindungan dari risiko akibat meninggal karena penyakit, kecelakaan atau pencurian.",
      "productLongDescription": "Perlindungan dari risiko akibat meninggal karena penyakit, kecelakaan atau pencurian.",
      "manfaatShort": [
        "1. Pengurusan Cepat",
        "2. Klaim Cepat",
        "3. Premi kompetitif"
      ],
      "manfaatAdditional": [
        "4. Tersedia bantuan premi pemerintah."
      ],
      "pengecualianShort": [
        "1. Kematian atas wabah yang diumumkan oleh Pemerintah",
        "2. Pengawasan kesehatan yang tidak teratur."
      ],
      "pengecualianAdditional": [
        ""
      ],
      "tncDescription": [
        "tncDescription"
      ],
      "klaimDescription": [
        "klaimDescription"
      ],
      "rateCalculationMethod": "Normal",
      "status": 1,
      "ratePremi": 0.03,
      "tenor": 12,
      "logoUri": "assets/icon/icon_cow2.png"
    }
  ],
  "PerluasanRisiko": [
    {
      "id": "pr1",
      "perluasanRisikoId": "Kebakaran/Flexas",
      "namaPerluasanRisiko": "Kebakaran, Petir, Ledakan, Kejatuhan Pesawat, dan Asap",
      "codeAsuransi": "JasaTania",
      "kategori": "ATS",
      "subKategori": "SI",
      "codePreReq": null,
      "deskripsi": "Perlakuan Resiko akibat Kebakaran, Petir, Ledakan, Kejatuhan Pesawat, dan Asap",
      "listNilaiPertanggungan": null,
      "listJumlahTertanggung": null,
      "rate": 0.0001,
      "status": 1
    },
    {
      "id": "pr2",
      "perluasanRisikoId": "Gempa&Banjir",
      "namaPerluasanRisiko": "Gempa dan Banjir",
      "codeAsuransi": "JasaTania",
      "kategori": "ATS",
      "subKategori": "SI",
      "codePreReq": null,
      "deskripsi": "Perluasan Resiko akibat Gempa dan Banjir",
      "listNilaiPertanggungan": null,
      "listJumlahTertanggung": null,
      "rate": 0.001,
      "status": 1
    },
    {
      "id": "pr3",
      "perluasanRisikoId": "Huru Hara",
      "namaPerluasanRisiko": "Huru Hara",
      "codeAsuransi": "JasaTania",
      "kategori": "ATS",
      "subKategori": "SI",
      "codePreReq": null,
      "deskripsi": "Perluasan Resiko akibat Huru Hara, Pemogokan, Perbuatan Jahat, Pergerakan Massa",
      "listNilaiPertanggungan": null,
      "listJumlahTertanggung": null,
      "rate": 0.00025,
      "status": 1
    },
    {
      "id": "pr4",
      "perluasanRisikoId": "Anakan",
      "namaPerluasanRisiko": "Anakan",
      "codeAsuransi": "JasaTania",
      "kategori": "ATS",
      "subKategori": "SI",
      "codePreReq": null,
      "deskripsi": "Perluasan Resiko akibat anakan meninggal pada saat kelahiran",
      "listNilaiPertanggungan": null,
      "listJumlahTertanggung": null,
      "rate": 0.00125,
      "status": 1
    },
    {
      "id": "pr5",
      "perluasanRisikoId": "Wabah",
      "namaPerluasanRisiko": "Wabah",
      "codeAsuransi": "JasaTania",
      "kategori": "ATS",
      "subKategori": "SI",
      "codePreReq": null,
      "deskripsi": "Perluasan Resiko akibat wabah",
      "listNilaiPertanggungan": null,
      "listJumlahTertanggung": null,
      "rate": 0.0015,
      "status": 1
    },
    {
      "id": "pr6",
      "perluasanRisikoId": "Kebakaran/Flexas",
      "namaPerluasanRisiko": "Kebakaran, Petir, Ledakan, Kejatuhan Pesawat, dan Asap",
      "codeAsuransi": "JasaTania",
      "kategori": "ATS",
      "subKategori": "SP",
      "codePreReq": null,
      "deskripsi": "Perlakuan Resiko akibat Kebakaran, Petir, Ledakan, Kejatuhan Pesawat, dan Asap",
      "listNilaiPertanggungan": null,
      "listJumlahTertanggung": null,
      "rate": 0.0001,
      "status": 1
    },
    {
      "id": "pr7",
      "perluasanRisikoId": "Gempa&Banjir",
      "namaPerluasanRisiko": "Gempa dan Banjir",
      "codeAsuransi": "JasaTania",
      "kategori": "ATS",
      "subKategori": "SP",
      "codePreReq": null,
      "deskripsi": "Perluasan Resiko akibat Gempa dan Banjir",
      "listNilaiPertanggungan": null,
      "listJumlahTertanggung": null,
      "rate": 0.001,
      "status": 1
    },
    {
      "id": "pr8",
      "perluasanRisikoId": "Huru Hara",
      "namaPerluasanRisiko": "Huru Hara",
      "codeAsuransi": "JasaTania",
      "kategori": "ATS",
      "subKategori": "SP",
      "codePreReq": null,
      "deskripsi": "Perluasan Resiko akibat Huru Hara, Pemogokan, Perbuatan Jahat, Pergerakan Massa",
      "listNilaiPertanggungan": null,
      "listJumlahTertanggung": null,
      "rate": 0.00025,
      "status": 1
    },
    {
      "id": "pr9",
      "perluasanRisikoId": "Wabah",
      "namaPerluasanRisiko": "Wabah",
      "codeAsuransi": "JasaTania",
      "kategori": "ATS",
      "subKategori": "SP",
      "codePreReq": null,
      "deskripsi": "Perluasan Resiko akibat wabah",
      "listNilaiPertanggungan": null,
      "listJumlahTertanggung": null,
      "rate": 0.0015,
      "status": 1
    }
  ],
  "SppaHeader": [
    {
      "sppaId": "",
      "customerId": "SASPRI12-05",
      "salesId": "SASPRI12",
      "marketingId": "SASPRINAS",
      "brokerId": "1",
      "asuransiName": "JasaTania",
      "produkCode": "JTNATSSP1",
      "produkName": "Asuransi Sapi Fattening Jasa Tania",
      "kategori": "ATS",
      "subKategori": "SP",
      "statusSppa": 20,
      "nilaiPertanggungan": 10000000,
      "tenor": 4,
      "premiRate": 0.011,
      "premiAmount": 110000,
      "polisId": "",
      "id": "c6c6"
    },
    {
      "sppaId": "",
      "customerId": "SASPRI12-05",
      "salesId": "SASPRI12",
      "marketingId": "SASPRINAS",
      "brokerId": "1",
      "asuransiName": "JasaTania",
      "produkCode": "JTNATSSP1",
      "produkName": "Asuransi Sapi Fattening Jasa Tania",
      "kategori": "ATS",
      "subKategori": "SP",
      "statusSppa": 8,
      "nilaiPertanggungan": 9000000,
      "tenor": 4,
      "premiRate": 0.011,
      "premiAmount": 99000,
      "polisId": "",
      "id": "0347"
    },
    {
      "sppaId": "",
      "customerId": "SASPRI12-05",
      "salesId": "SASPRI12",
      "marketingId": "SASPRINAS",
      "brokerId": "1",
      "asuransiName": "JasaTania",
      "produkCode": "JTNATSSI1",
      "produkName": "Asuransi Sapi Breeding Jasa Tania",
      "kategori": "ATS",
      "subKategori": "SI",
      "statusSppa": 6,
      "nilaiPertanggungan": 9000000,
      "tenor": 12,
      "premiRate": 0.031,
      "premiAmount": 279000,
      "polisId": "",
      "id": "830e"
    }
  ],
  "SppaPerluasanRisiko": [
    {
      "id": "a718",
      "sppaId": "c6c6",
      "namaPerluasanRisiko": "Gempa dan Banjir",
      "rate": 0.001,
      "jumlahTertanggung": 0,
      "nilaiPerlindungan": 0,
      "tambahanPremi": 0,
      "polisId": "",
      "polisEndorsementId": ""
    },
    {
      "id": "d7df",
      "sppaId": "0347",
      "namaPerluasanRisiko": "Gempa dan Banjir",
      "rate": 0.001,
      "jumlahTertanggung": 0,
      "nilaiPerlindungan": 0,
      "tambahanPremi": 0,
      "polisId": "",
      "polisEndorsementId": ""
    },
    {
      "id": "702f",
      "sppaId": "830e",
      "namaPerluasanRisiko": "Gempa dan Banjir",
      "rate": 0.001,
      "jumlahTertanggung": 0,
      "nilaiPerlindungan": 0,
      "tambahanPremi": 0,
      "polisId": "",
      "polisEndorsementId": ""
    }
  ],
  "SppaStatus": [
    {
      "sppaId": "c6c6",
      "statusSppa": 20,
      "initSubmitDtMillis": 0,
      "initSubmitDt": "",
      "tglReviewSalesMillis": 0,
      "tglReviewSales": "",
      "salesNote": "",
      "tglSubmitSalesMillis": 0,
      "tglSubmitSales": "",
      "tglReviewMarketing": "",
      "tglReviewMarketingMillis": 0,
      "marketingNote": "",
      "tglSubmitMarketing": "",
      "tglSubmitMarketingMillis": 0,
      "tglRecapMillis": 0,
      "tglRecap": "",
      "recapSppaId": "",
      "tglReviewBroker": "",
      "tglReviewBrokerMillis": 0,
      "brokerNote": "",
      "tglSubmitBrokerMillis": 0,
      "tglSubmitBroker": "",
      "tglResponseAsuransiMillis": 0,
      "tglResponseAsuransi": "",
      "statusResponseAsuransi": 0,
      "asuransiNote": "",
      "tglCreated": "25-Apr-2024",
      "tglCreatedMillis": 1714030997306,
      "tglLastUpdate": "25-Apr-2024",
      "tglLastUpdateMillis": 1714056106109,
      "id": "d12d"
    },
    {
      "sppaId": "0347",
      "statusSppa": 8,
      "initSubmitDtMillis": 1714058839154,
      "initSubmitDt": "25-Apr-2024",
      "tglReviewSalesMillis": 1714057819650,
      "tglReviewSales": "25-Apr-2024",
      "salesNote": "ya masih kurang lah",
      "tglSubmitSalesMillis": 1714058863088,
      "tglSubmitSales": "25-Apr-2024",
      "tglReviewMarketing": "",
      "tglReviewMarketingMillis": 0,
      "marketingNote": "",
      "tglSubmitMarketing": "25-Apr-2024",
      "tglSubmitMarketingMillis": 1714060527427,
      "tglRecapMillis": 0,
      "tglRecap": "",
      "recapSppaId": "",
      "tglReviewBroker": "",
      "tglReviewBrokerMillis": 0,
      "brokerNote": "",
      "tglSubmitBrokerMillis": 1714063579826,
      "tglSubmitBroker": "25-Apr-2024",
      "tglResponseAsuransiMillis": 0,
      "tglResponseAsuransi": "",
      "statusResponseAsuransi": 0,
      "asuransiNote": "",
      "tglCreated": "25-Apr-2024",
      "tglCreatedMillis": 1714040350118,
      "tglLastUpdate": "25-Apr-2024",
      "tglLastUpdateMillis": 1714058839154,
      "id": "4e69"
    },
    {
      "sppaId": "830e",
      "statusSppa": 6,
      "initSubmitDtMillis": 1714062862900,
      "initSubmitDt": "25-Apr-2024",
      "tglReviewSalesMillis": 1714062359682,
      "tglReviewSales": "25-Apr-2024",
      "salesNote": "",
      "tglSubmitSalesMillis": 1714063037072,
      "tglSubmitSales": "25-Apr-2024",
      "tglReviewMarketing": "25-Apr-2024",
      "tglReviewMarketingMillis": 1714060630209,
      "marketingNote": "",
      "tglSubmitMarketing": "25-Apr-2024",
      "tglSubmitMarketingMillis": 1714063555410,
      "tglRecapMillis": 0,
      "tglRecap": "",
      "recapSppaId": "",
      "tglReviewBroker": "",
      "tglReviewBrokerMillis": 0,
      "brokerNote": "",
      "tglSubmitBrokerMillis": 0,
      "tglSubmitBroker": "",
      "tglResponseAsuransiMillis": 0,
      "tglResponseAsuransi": "",
      "statusResponseAsuransi": 0,
      "asuransiNote": "",
      "tglCreated": "25-Apr-2024",
      "tglCreatedMillis": 1714040746117,
      "tglLastUpdate": "25-Apr-2024",
      "tglLastUpdateMillis": 1714062862900,
      "id": "b173"
    }
  ],
  "TernakSapi": [
    {
      "id": "0195",
      "sppaId": "c6c6",
      "seqNo": 1,
      "nama": "SO - 1234",
      "earTag": "1234",
      "tglLahirMillis": 1619283600000,
      "tglLahir": "25-Apr-2021",
      "jenis": "SO",
      "kelamin": "Jantan",
      "hargaPerolehan": 10000000,
      "nilaiPertanggungan": 10000000,
      "status": 0,
      "polisId": "",
      "polisEndorsementId": "",
      "klaimId": ""
    },
    {
      "id": "d968",
      "sppaId": "0347",
      "seqNo": 1,
      "nama": "SO - 1122",
      "earTag": "1122",
      "tglLahirMillis": 1682355600000,
      "tglLahir": "25-Apr-2023",
      "jenis": "SO",
      "kelamin": "Jantan",
      "hargaPerolehan": 9000000,
      "nilaiPertanggungan": 9000000,
      "status": 0,
      "polisId": "",
      "polisEndorsementId": "",
      "klaimId": ""
    },
    {
      "id": "0dd2",
      "sppaId": "830e",
      "seqNo": 1,
      "nama": "Bali - 2233",
      "earTag": "2233",
      "tglLahirMillis": 1714062681329,
      "tglLahir": "25-Apr-2024",
      "jenis": "Bali",
      "kelamin": "Betina",
      "hargaPerolehan": 9000000,
      "nilaiPertanggungan": 9000000,
      "status": 0,
      "polisId": "",
      "polisEndorsementId": "",
      "klaimId": ""
    }
  ],
  "InfoAtsJasTan": [
    {
      "sppaId": "c6c6",
      "lokasiKandang": "samping rumah, kandang permanen,  air ad libitum",
      "kriteriaPemeliharaan": "Semi Intensif",
      "sistemPakanTernak": "Kombinasi",
      "infoMgmtKandang": "",
      "infoMgmtPakan": "",
      "infoMgmtKesehatan": "",
      "id": "d018"
    },
    {
      "id": "6738",
      "sppaId": "0347",
      "lokasiKandang": "Masih disamping rumah",
      "kriteriaPemeliharaan": "Ekstensif",
      "sistemPakanTernak": "Dry Lot",
      "infoMgmtKandang": "",
      "infoMgmtPakan": "",
      "infoMgmtKesehatan": ""
    },
    {
      "id": "c3c0",
      "sppaId": "830e",
      "lokasiKandang": "tetep samping rumah",
      "kriteriaPemeliharaan": "Ekstensif",
      "sistemPakanTernak": "Dry Lot",
      "infoMgmtKandang": "",
      "infoMgmtPakan": "",
      "infoMgmtKesehatan": ""
    }
  ],
  "RecapSppaHeader": [],
  "RecapSppaStatus": [],
  "RecapSppaDetail": [],
  "SppaCounters": [
    {
      "custProfileCounter": 0,
      "salesCounter": 0,
      "marketingCounter": 0,
      "sppaCounter": 0,
      "ternakCounter": 0,
      "id": "cc99"
    }
  ]
}